blockseq,cue,probe,resp,con,con_2.thisRepN,con_2.thisTrialN,con_2.thisN,con_2.thisIndex,block_2.thisRepN,block_2.thisTrialN,block_2.thisN,block_2.thisIndex,instr_text2.started,instr_text2.stopped,key_resp_9.keys,key_resp_9.rt,key_resp_9.started,key_resp_9.stopped,polygon.started,polygon.stopped,duration,cue_text2.started,cue_text2.stopped,kp_text2.started,kp_text2.stopped,probe_text2.started,probe_text2.stopped,key_resp_4.keys,key_resp_4.corr,key_resp_4.rt,key_resp_4.started,key_resp_4.stopped,image_2.started,image_2.stopped,fd_text2.started,fd_text2.stopped,rest_text2.started,rest_text2.stopped,key_resp_5.keys,key_resp_5.rt,key_resp_5.started,key_resp_5.stopped,participant,name,baseline_rt,date,expName,psychopyVersion,frameRate
,,,,,,,,,,,,,36.3995326,None,space,34.949459,36.8663564,None,,,,,,,,,,,,,,,,,,,,,,,,,12,퇡훹쫲,0.1379,2022_Aug_12_1858,쫌퇈잆챠,2021.1.4,59.93418035
1st,A,X,right,1,0,0,0,0,0,0,0,4,,,,,,,71.9128243,None,0.6,72.5298932,72.8310483,72.8141845,74.8140503,74.8140503,75.1153601,right,1,0.0976524,75.1153601,None,75.297557,None,75.297557,None,,,,,,,12,퇡훹쫲,0.1379,2022_Aug_12_1858,쫌퇈잆챠,2021.1.4,59.93418035
1st,A,X,right,1,0,0,0,0,0,1,1,0,,,,,,,76.2990888,None,0.492,76.7990205,77.0991745,77.0825555,79.0834149,79.0834149,79.3823347,right,1,0.063096,79.3823347,None,79.5163518,None,79.5163518,None,,,,,,,12,퇡훹쫲,0.1379,2022_Aug_12_1858,쫌퇈잆챠,2021.1.4,59.93418035
1st,A,X,right,1,0,0,0,0,0,2,2,2,,,,,,,80.5168861,None,0.594,81.1169669,81.4164044,81.399753,83.4008122,83.4008122,83.7011802,right,1,0.029842,83.7011802,None,83.768371,None,83.768371,None,,,,,,,12,퇡훹쫲,0.1379,2022_Aug_12_1858,쫌퇈잆챠,2021.1.4,59.93418035
1st,A,X,right,1,0,0,0,0,0,3,3,1,,,,,,,84.7676367,None,0.781,85.5523966,85.851927,85.8349745,87.8366634,87.8366634,88.1359909,right,1,0.0358332,88.1359909,None,88.2189141,None,88.2189141,None,,,,,,,12,퇡훹쫲,0.1379,2022_Aug_12_1858,쫌퇈잆챠,2021.1.4,59.93418035
1st,B,X,left,3,0,0,0,0,0,4,4,8,,,,,,,89.2207882,None,0.618,89.8533645,90.1537577,90.1369661,92.1383783,92.1383783,92.4379448,left,1,0.1414848,92.4379448,None,92.6209349,92.6209349,92.6209349,None,,,,,,,12,퇡훹쫲,0.1379,2022_Aug_12_1858,쫌퇈잆챠,2021.1.4,59.93418035
1st,A,Y,left,2,0,0,0,0,0,5,5,7,,,,,,,93.6222724,None,0.695,94.32453,94.6242413,94.6242413,96.6243773,96.6243773,96.9250416,left,1,0.6648833,96.9250416,None,97.6233142,97.6233142,97.6233142,None,,,,,,,12,퇡훹쫲,0.1379,2022_Aug_12_1858,쫌퇈잆챠,2021.1.4,59.93418035
1st,A,Y,left,2,0,0,0,0,0,6,6,7,,,,,,,98.624045,None,0.686,99.3243265,99.6235354,99.6073029,101.6143653,101.6143653,101.9246673,left,1,0.1274984,101.9081931,None,102.0750265,None,102.0750265,None,,,,,,,12,퇡훹쫲,0.1379,2022_Aug_12_1858,쫌퇈잆챠,2021.1.4,59.93418035
1st,A,X,right,1,0,0,0,0,0,7,7,4,,,,,,,103.0751765,None,0.622,103.7095657,104.0251127,103.9919127,105.993504,105.993504,106.2927434,right,1,0.1810131,106.2927434,None,106.5093736,106.5093736,106.5093736,None,,,,,,,12,퇡훹쫲,0.1379,2022_Aug_12_1858,쫌퇈잆챠,2021.1.4,59.93418035
1st,A,Y,left,2,0,0,0,0,0,8,8,7,,,,,,,107.5098135,None,0.461,107.9774663,108.2776976,108.2612353,110.2609945,110.2609945,110.5619996,left,1,0.2396915,110.5619996,None,110.844521,110.844521,110.844521,None,,,,,,,12,퇡훹쫲,0.1379,2022_Aug_12_1858,쫌퇈잆챠,2021.1.4,59.93418035
1st,A,X,right,1,0,0,0,0,0,9,9,2,,,,,,,111.8457202,None,0.681,112.5284935,112.8295212,112.8129641,114.8138179,114.8138179,115.1292676,right,1,0.0371222,115.1130594,None,115.2305887,None,115.2305887,None,,,,,,,12,퇡훹쫲,0.1379,2022_Aug_12_1858,쫌퇈잆챠,2021.1.4,59.93418035
1st,B,Y,left,4,0,0,0,0,1,0,10,9,,,,,,,116.229814,None,0.595,116.8298371,117.1312401,117.1143881,119.1145153,119.1145153,119.4142987,left,1,0.0271467,119.4142987,None,119.4810824,None,119.4810824,None,,,,,,,12,퇡훹쫲,0.1379,2022_Aug_12_1858,쫌퇈잆챠,2021.1.4,59.93418035
1st,A,X,right,1,0,0,0,0,1,1,11,6,,,,,,,120.4845828,None,0.467,120.9514438,121.2509017,121.2339725,123.2348952,123.2348952,123.535161,right,1,0.1171991,123.535161,None,123.7176886,None,123.7176886,None,,,,,,,12,퇡훹쫲,0.1379,2022_Aug_12_1858,쫌퇈잆챠,2021.1.4,59.93418035
1st,B,X,left,3,0,0,0,0,1,2,12,8,,,,,,,124.7193586,None,0.511,125.2365787,125.5368151,125.5201011,127.5201042,127.5201042,127.8207432,left,1,0.5147815,127.8207432,None,128.3687779,128.3687779,128.3687779,None,,,,,,,12,퇡훹쫲,0.1379,2022_Aug_12_1858,쫌퇈잆챠,2021.1.4,59.93418035
1st,A,X,right,1,0,0,0,0,1,3,13,3,,,,,,,129.3690249,None,0.528,129.9015979,130.2023321,130.1856063,132.1858293,132.1858293,132.4858456,right,1,0.18096,132.4858456,None,132.6875083,132.6875083,132.6875083,None,,,,,,,12,퇡훹쫲,0.1379,2022_Aug_12_1858,쫌퇈잆챠,2021.1.4,59.93418035
1st,B,X,left,3,0,0,0,0,1,4,14,8,,,,,,,133.6890557,None,0.623,134.3227553,134.6224495,134.6058721,136.606992,136.606992,136.9074731,left,1,0.103603,136.9074731,None,137.0542695,None,137.0542695,None,,,,,,,12,퇡훹쫲,0.1379,2022_Aug_12_1858,쫌퇈잆챠,2021.1.4,59.93418035
1st,B,X,left,3,0,0,0,0,1,5,15,8,,,,,,,138.0546698,None,0.664,138.7227449,139.022736,139.0061855,141.006082,141.006082,141.3069673,left,1,0.015374,141.3069673,None,141.3898274,None,141.3898274,None,,,,,,,12,퇡훹쫲,0.1379,2022_Aug_12_1858,쫌퇈잆챠,2021.1.4,59.93418035
1st,A,X,right,1,0,0,0,0,1,6,16,4,,,,,,,142.3923618,None,0.605,143.0086843,143.3092005,143.292606,145.2927969,145.2927969,145.5935106,right,1,0.0408187,145.5935106,None,145.6744396,None,145.6744396,None,,,,,,,12,퇡훹쫲,0.1379,2022_Aug_12_1858,쫌퇈잆챠,2021.1.4,59.93418035
1st,B,Y,left,4,0,0,0,0,1,7,17,9,,,,,,,146.6755473,None,0.68,147.3592227,147.6582875,147.6423002,149.6432356,149.6432356,149.9424724,left,1,0.3722977,149.9424724,None,150.3596891,150.3596891,150.3596891,None,,,,,,,12,퇡훹쫲,0.1379,2022_Aug_12_1858,쫌퇈잆챠,2021.1.4,59.93418035
1st,A,X,right,1,0,0,0,0,1,8,18,0,,,,,,,151.3609057,None,0.631,151.9931456,152.2936718,152.2769925,154.2777134,154.2777134,154.5775394,right,1,0.0293423,154.5775394,None,154.6443849,None,154.6443849,None,,,,,,,12,퇡훹쫲,0.1379,2022_Aug_12_1858,쫌퇈잆챠,2021.1.4,59.93418035
1st,A,X,right,1,0,0,0,0,1,9,19,6,,,,,,,155.6448443,None,0.792,156.4461061,156.7453402,156.7287025,158.7297221,158.7297221,159.0305766,left,0,0.0741196,159.0305766,None,159.1463231,159.1463231,159.1463231,None,,,,,,,12,퇡훹쫲,0.1379,2022_Aug_12_1858,쫌퇈잆챠,2021.1.4,59.93418035
1st,A,X,right,1,0,0,0,0,2,0,20,2,,,,,,,160.1471343,None,0.59,160.7468047,161.047743,161.031336,163.0321753,163.0321753,163.3315962,right,1,0.0446365,163.3315962,None,163.4149536,None,163.4149536,None,,,,,,,12,퇡훹쫲,0.1379,2022_Aug_12_1858,쫌퇈잆챠,2021.1.4,59.93418035
1st,A,X,right,1,0,0,0,0,2,1,21,6,,,,,,,164.4158879,None,0.69,165.1162065,165.4329226,165.398537,167.400549,167.400549,167.7162293,right,1,0.1014862,167.6995294,None,167.8326984,None,167.8326984,None,,,,,,,12,퇡훹쫲,0.1379,2022_Aug_12_1858,쫌퇈잆챠,2021.1.4,59.93418035
1st,A,X,right,1,0,0,0,0,2,2,22,5,,,,,,,168.8333101,None,0.539,169.3833267,169.684473,169.6679173,171.6680687,171.6680687,171.968576,right,1,0.0657738,171.968576,None,172.067594,None,172.067594,None,,,,,,,12,퇡훹쫲,0.1379,2022_Aug_12_1858,쫌퇈잆챠,2021.1.4,59.93418035
1st,A,X,right,1,0,0,0,0,2,3,23,3,,,,,,,173.0685952,None,0.738,173.8184493,174.1186138,174.1027764,176.1035207,176.1035207,176.4038215,right,1,0.0638822,176.4038215,None,176.5036907,None,176.5036907,None,,,,,,,12,퇡훹쫲,0.1379,2022_Aug_12_1858,쫌퇈잆챠,2021.1.4,59.93418035
1st,A,X,right,1,0,0,0,0,2,4,24,0,,,,,,,177.503037,None,0.692,178.2043112,178.5044303,178.487913,180.4886613,180.4886613,180.7886786,right,1,0.054947,180.7886786,None,180.8882786,None,180.8882786,None,,,,,,,12,퇡훹쫲,0.1379,2022_Aug_12_1858,쫌퇈잆챠,2021.1.4,59.93418035
1st,A,Y,left,2,0,0,0,0,2,5,25,7,,,,,,,181.8889211,None,0.401,182.3049062,182.6059505,182.5893032,184.5901101,184.5901101,184.8892835,left,1,0.1799683,184.8892835,None,185.1065281,185.1065281,185.1065281,None,,,,,,,12,퇡훹쫲,0.1379,2022_Aug_12_1858,쫌퇈잆챠,2021.1.4,59.93418035
1st,A,X,right,1,0,0,0,0,2,6,26,6,,,,,,,186.1066059,None,0.711,186.8240345,187.1243752,187.1076769,189.109036,189.109036,189.408763,right,1,0.0624105,189.408763,None,189.5414595,None,189.5414595,None,,,,,,,12,퇡훹쫲,0.1379,2022_Aug_12_1858,쫌퇈잆챠,2021.1.4,59.93418035
1st,A,X,right,1,0,0,0,0,2,7,27,1,,,,,,,190.5440326,None,0.481,191.0271392,191.3269971,191.3103633,193.3116081,193.3116081,193.6117912,right,1,0.2433387,193.6117912,None,193.8925297,193.8925297,193.8925297,None,,,,,,,12,퇡훹쫲,0.1379,2022_Aug_12_1858,쫌퇈잆챠,2021.1.4,59.93418035
1st,A,X,right,1,0,0,0,0,2,8,28,1,,,,,,,194.8941908,None,0.51,195.4111884,195.7100022,195.6938777,197.6950747,197.6950747,197.9952237,right,1,0.1138241,197.9952237,None,198.1444197,None,198.1444197,None,,,,,,,12,퇡훹쫲,0.1379,2022_Aug_12_1858,쫌퇈잆챠,2021.1.4,59.93418035
1st,A,X,right,1,0,0,0,0,2,9,29,3,,,,,,,199.1456489,None,0.798,199.9452745,200.2460694,200.2295056,202.2298796,202.2298796,202.5291385,right,1,0.3793465,202.5291385,None,202.9466736,202.9466736,202.9466736,None,,,,,,,12,퇡훹쫲,0.1379,2022_Aug_12_1858,쫌퇈잆챠,2021.1.4,59.93418035
1st,A,X,right,1,0,0,0,0,3,0,30,1,,,,,,,203.9467193,None,0.734,204.6810224,204.980852,204.9641045,206.9648975,206.9648975,207.2654493,right,1,0.0493488,207.2654493,None,207.3478802,None,207.3478802,None,,,,,,,12,퇡훹쫲,0.1379,2022_Aug_12_1858,쫌퇈잆챠,2021.1.4,59.93418035
1st,A,X,right,1,0,0,0,0,3,1,31,3,,,,,,,208.3490961,None,0.61,208.9649149,209.2651927,209.2487326,211.2505117,211.2505117,211.5661275,right,1,0.0475665,211.5493422,None,211.6330602,None,211.6330602,None,,,,,,,12,퇡훹쫲,0.1379,2022_Aug_12_1858,쫌퇈잆챠,2021.1.4,59.93418035
1st,A,Y,left,2,0,0,0,0,3,2,32,7,,,,,,,212.6342169,None,0.506,213.1511539,213.4506625,213.4346828,215.4351733,215.4351733,215.7348507,left,1,0.1795162,215.7348507,None,215.9514221,215.9514221,215.9514221,None,,,,,,,12,퇡훹쫲,0.1379,2022_Aug_12_1858,쫌퇈잆챠,2021.1.4,59.93418035
1st,B,X,left,3,0,0,0,0,3,3,33,8,,,,,,,216.9524628,None,0.783,217.7353171,218.0365008,218.019563,220.0193689,220.0193689,220.320464,left,1,0.0063275,220.320464,None,220.3699815,None,220.3699815,None,,,,,,,12,퇡훹쫲,0.1379,2022_Aug_12_1858,쫌퇈잆챠,2021.1.4,59.93418035
1st,A,X,right,1,0,0,0,0,3,4,34,2,,,,,,,221.3698458,None,0.462,221.8377949,222.1377219,222.1213237,224.1212464,224.1212464,224.4215056,right,1,0.1037648,224.4215056,None,224.5709268,None,224.5709268,None,,,,,,,12,퇡훹쫲,0.1379,2022_Aug_12_1858,쫌퇈잆챠,2021.1.4,59.93418035
1st,B,Y,left,4,0,0,0,0,3,5,35,9,,,,,,,225.5723134,None,0.627,226.2048534,226.5060135,226.4893769,228.48972,228.48972,228.7896068,left,1,0.0475232,228.7896068,None,228.8556847,None,228.8556847,None,,,,,,,12,퇡훹쫲,0.1379,2022_Aug_12_1858,쫌퇈잆챠,2021.1.4,59.93418035
1st,A,X,right,1,0,0,0,0,3,6,36,0,,,,,,,229.8563013,None,0.44,230.3073496,230.6076541,230.5908554,232.5917233,232.5917233,232.8919548,right,1,0.0561894,232.8919548,None,233.0247891,None,233.0247891,None,,,,,,,12,퇡훹쫲,0.1379,2022_Aug_12_1858,쫌퇈잆챠,2021.1.4,59.93418035
1st,A,X,right,1,0,0,0,0,3,7,37,3,,,,,,,234.0256473,None,0.66,234.6920039,234.9923632,234.975126,236.9757197,236.9757197,237.2764009,right,1,0.7107913,237.2764009,None,238.0262506,238.0262506,238.0262506,None,,,,,,,12,퇡훹쫲,0.1379,2022_Aug_12_1858,쫌퇈잆챠,2021.1.4,59.93418035
1st,A,X,right,1,0,0,0,0,3,8,38,5,,,,,,,239.0277064,None,0.655,239.6933909,239.9946897,239.9778837,241.9786126,241.9786126,242.2942946,right,1,0.0822967,242.2776553,None,242.3943297,None,242.3943297,None,,,,,,,12,퇡훹쫲,0.1379,2022_Aug_12_1858,쫌퇈잆챠,2021.1.4,59.93418035
1st,B,X,left,3,0,0,0,0,3,9,39,8,,,,,,,243.3949738,None,0.463,243.8626429,244.1788668,244.144962,246.146856,246.146856,246.4638975,left,1,0.0789001,246.4459155,None,246.5626212,None,246.5626212,None,,,,,,,12,퇡훹쫲,0.1379,2022_Aug_12_1858,쫌퇈잆챠,2021.1.4,59.93418035
1st,A,X,right,1,0,0,0,0,4,0,40,6,,,,,,,247.5637575,None,0.469,248.0472316,248.3467356,248.3300472,250.3319184,250.3319184,250.6478396,right,1,0.0034744,250.6314566,None,250.7143357,None,250.7143357,None,,,,,,,12,퇡훹쫲,0.1379,2022_Aug_12_1858,쫌퇈잆챠,2021.1.4,59.93418035
1st,A,X,right,1,0,0,0,0,4,1,41,0,,,,,,,251.7156714,None,0.514,252.2325042,252.5326237,252.5159065,254.5167319,254.5167319,254.8170198,right,1,0.047587,254.8170198,None,254.9323673,None,254.9323673,None,,,,,,,12,퇡훹쫲,0.1379,2022_Aug_12_1858,쫌퇈잆챠,2021.1.4,59.93418035
1st,A,X,right,1,0,0,0,0,4,2,42,5,,,,,,,255.9331063,None,0.477,256.4175655,256.7167683,256.6999836,258.7016305,258.7016305,259.0019764,right,1,0.0978373,259.0019764,None,259.1347602,None,259.1347602,None,,,,,,,12,퇡훹쫲,0.1379,2022_Aug_12_1858,쫌퇈잆챠,2021.1.4,59.93418035
1st,B,Y,left,4,0,0,0,0,4,3,43,9,,,,,,,260.1355579,None,0.597,260.7346853,261.0349017,261.0196783,263.0188625,263.0188625,263.32026,left,1,0.4513984,263.32026,None,263.8027933,263.8027933,263.8027933,None,,,,,,,12,퇡훹쫲,0.1379,2022_Aug_12_1858,쫌퇈잆챠,2021.1.4,59.93418035
1st,B,Y,left,4,0,0,0,0,4,4,44,9,,,,,,,264.804134,None,0.436,265.2531187,265.5531823,265.5366173,267.537935,267.537935,267.8374309,left,1,0.1962517,267.8374309,None,268.071503,268.071503,268.071503,None,,,,,,,12,퇡훹쫲,0.1379,2022_Aug_12_1858,쫌퇈잆챠,2021.1.4,59.93418035
1st,A,X,right,1,0,0,0,0,4,5,45,4,,,,,,,269.0718336,None,0.646,269.7224987,270.0226139,270.0060726,272.0068922,272.0068922,272.3064362,right,1,0.0334671,272.3064362,None,272.3731444,None,272.3731444,None,,,,,,,12,퇡훹쫲,0.1379,2022_Aug_12_1858,쫌퇈잆챠,2021.1.4,59.93418035
1st,A,X,right,1,0,0,0,0,4,6,46,3,,,,,,,273.3738929,None,0.783,274.1579673,274.457627,274.4409375,276.4408949,276.4408949,276.7415806,left,0,0.5229552,276.7415806,None,277.3083015,277.3083015,277.3083015,None,,,,,,,12,퇡훹쫲,0.1379,2022_Aug_12_1858,쫌퇈잆챠,2021.1.4,59.93418035
1st,A,Y,left,2,0,0,0,0,4,7,47,7,,,,,,,278.3091089,None,0.444,278.7582407,279.0587687,279.0423574,281.0434701,281.0434701,281.3428353,left,1,0.3379297,281.3428353,None,281.7270784,281.7270784,281.7270784,None,,,,,,,12,퇡훹쫲,0.1379,2022_Aug_12_1858,쫌퇈잆챠,2021.1.4,59.93418035
1st,A,X,right,1,0,0,0,0,4,8,48,5,,,,,,,282.7274497,None,0.456,283.1943726,283.4944616,283.477873,285.4775537,285.4775537,285.7784808,right,1,0.048764,285.7784808,None,285.8609212,None,285.8609212,None,,,,,,,12,퇡훹쫲,0.1379,2022_Aug_12_1858,쫌퇈잆챠,2021.1.4,59.93418035
1st,A,X,right,1,0,0,0,0,4,9,49,0,,,,,,,286.862359,None,0.528,287.3949069,287.6955679,287.6793811,289.6801064,289.6801064,289.9795391,right,1,0.2887999,289.9795391,None,290.312937,290.312937,290.312937,None,,,,,,,12,퇡훹쫲,0.1379,2022_Aug_12_1858,쫌퇈잆챠,2021.1.4,59.93418035
1st,A,X,right,1,0,0,0,0,5,0,50,2,,,,,,,291.3140154,None,0.758,292.0805024,292.3811917,292.3635301,294.3651953,294.3651953,294.6646699,right,1,0.0711096,294.6646699,None,294.7660952,None,294.7660952,None,,,,,,,12,퇡훹쫲,0.1379,2022_Aug_12_1858,쫌퇈잆챠,2021.1.4,59.93418035
1st,B,Y,left,4,0,0,0,0,5,1,51,9,,,,,,,295.7674186,None,0.535,296.3176263,296.6176643,296.6005653,298.6157809,298.5990905,298.8992148,left,1,0.5913878,298.8992148,None,299.5331682,299.5331682,299.5331682,None,,,,,,,12,퇡훹쫲,0.1379,2022_Aug_12_1858,쫌퇈잆챠,2021.1.4,59.93418035
1st,A,X,right,1,0,0,0,0,5,2,52,4,,,,,,,300.5338223,None,0.483,301.0177306,301.3176496,301.301191,303.3013286,303.3013286,303.6009711,right,1,0.3462488,303.6009711,None,303.9844962,303.9844962,303.9844962,None,,,,,,,12,퇡훹쫲,0.1379,2022_Aug_12_1858,쫌퇈잆챠,2021.1.4,59.93418035
1st,B,Y,left,4,0,0,0,0,5,3,53,9,,,,,,,304.9848684,None,0.769,305.7689181,306.0696747,306.0530957,308.0529218,308.0529218,308.3528548,left,1,0.7792332,308.3528548,None,309.1700394,309.1700394,309.1700394,None,,,,,,,12,퇡훹쫲,0.1379,2022_Aug_12_1858,쫌퇈잆챠,2021.1.4,59.93418035
1st,B,X,left,3,0,0,0,0,5,4,54,8,,,,,,,310.1712889,None,0.478,310.6537367,310.9549721,310.9377699,312.938054,312.938054,313.2390668,left,1,0.3329094,313.2390668,None,313.6059366,313.6059366,313.6059366,None,,,,,,,12,퇡훹쫲,0.1379,2022_Aug_12_1858,쫌퇈잆챠,2021.1.4,59.93418035
1st,A,X,right,1,0,0,0,0,5,5,55,6,,,,,,,314.6064199,None,0.786,315.4056322,315.7066426,315.6900338,317.6908765,317.6908765,317.990412,right,1,0.1735706,317.990412,None,318.2068755,318.2068755,318.2068755,None,,,,,,,12,퇡훹쫲,0.1379,2022_Aug_12_1858,쫌퇈잆챠,2021.1.4,59.93418035
1st,A,X,right,1,0,0,0,0,5,6,56,5,,,,,,,319.2070536,None,0.501,319.7082823,320.0083055,319.9917899,321.9925913,321.9925913,322.29222,right,1,0.1834404,322.29222,None,322.4933876,322.4933876,322.4933876,None,,,,,,,12,퇡훹쫲,0.1379,2022_Aug_12_1858,쫌퇈잆챠,2021.1.4,59.93418035
1st,A,X,right,1,0,0,0,0,5,7,57,1,,,,,,,323.4945361,None,0.746,324.2445578,324.5445495,324.5279923,326.5288794,326.5288794,326.8287167,right,1,0.1510114,326.8287167,None,327.0099997,327.0099997,327.0099997,None,,,,,,,12,퇡훹쫲,0.1379,2022_Aug_12_1858,쫌퇈잆챠,2021.1.4,59.93418035
1st,A,X,right,1,0,0,0,0,5,8,58,2,,,,,,,328.0109514,None,0.54,328.5607194,328.8607046,328.8440584,330.8455442,330.8455442,331.1448346,right,1,0.0096977,331.1448346,None,331.1948718,None,331.1948718,None,,,,,,,12,퇡훹쫲,0.1379,2022_Aug_12_1858,쫌퇈잆챠,2021.1.4,59.93418035
1st,A,X,right,1,0,0,0,0,5,9,59,4,,,,,,,332.1962823,None,0.661,332.8629386,333.1633905,333.1469503,335.1474352,335.1474352,335.4468753,right,1,0.0741918,335.4468753,None,335.5634625,None,335.5634625,None,,,,,,,12,퇡훹쫲,0.1379,2022_Aug_12_1858,쫌퇈잆챠,2021.1.4,59.93418035
1st,A,Y,left,2,0,0,0,0,6,0,60,7,,,,,,,336.56459,None,0.777,337.3474819,337.6479969,337.6317708,339.6313545,339.6313545,339.9317926,left,1,0.3269689,339.9317926,None,340.2986096,340.2986096,340.2986096,None,,,,,,,12,퇡훹쫲,0.1379,2022_Aug_12_1858,쫌퇈잆챠,2021.1.4,59.93418035
1st,A,X,right,1,0,0,0,0,6,1,61,6,,,,,,,341.2997263,None,0.616,341.916831,342.2325147,342.1992083,344.2011178,344.2011178,344.5006228,right,1,0.0657991,344.5006228,None,344.6009688,None,344.6009688,None,,,,,,,12,퇡훹쫲,0.1379,2022_Aug_12_1858,쫌퇈잆챠,2021.1.4,59.93418035
1st,A,X,right,1,0,0,0,0,6,2,62,5,,,,,,,345.6003359,None,0.558,346.1683105,346.4685532,346.4516769,348.4516284,348.4516284,348.7521954,right,1,0.2393096,348.7521954,None,349.0352608,349.0352608,349.0352608,None,,,,,,,12,퇡훹쫲,0.1379,2022_Aug_12_1858,쫌퇈잆챠,2021.1.4,59.93418035
1st,A,X,right,1,0,0,0,0,6,3,63,1,,,,,,,350.0363693,None,0.403,350.4532424,350.7536349,350.7366944,352.7375115,352.7375115,353.0371659,right,1,0.0173583,353.0371659,None,353.0872941,None,353.0872941,None,,,,,,,12,퇡훹쫲,0.1379,2022_Aug_12_1858,쫌퇈잆챠,2021.1.4,59.93418035
1st,A,X,right,1,0,0,0,0,6,4,64,2,,,,,,,354.0880389,None,0.524,354.6206104,354.9213969,354.9045161,356.9048335,356.9048335,357.2050395,right,1,0.0331287,357.2050395,None,357.255805,None,357.255805,None,,,,,,,12,퇡훹쫲,0.1379,2022_Aug_12_1858,쫌퇈잆챠,2021.1.4,59.93418035
1st,A,X,right,1,0,0,0,0,6,5,65,0,,,,,,,358.2576644,None,0.755,359.0254386,359.3247574,359.307932,361.3086971,361.3086971,361.609457,right,1,0.0325591,361.609457,None,361.6731035,None,361.6731035,None,,,,,,,12,퇡훹쫲,0.1379,2022_Aug_12_1858,쫌퇈잆챠,2021.1.4,59.93418035
1st,A,X,right,1,0,0,0,0,6,6,66,5,,,,,,,362.6745927,None,0.732,363.4081553,363.7257832,363.6905325,365.6915012,365.6915012,365.9918903,right,1,0.0597184,365.9918903,None,366.0921136,None,366.0921136,None,,,,,,,12,퇡훹쫲,0.1379,2022_Aug_12_1858,쫌퇈잆챠,2021.1.4,59.93418035
1st,A,X,right,1,0,0,0,0,6,7,67,4,,,,,,,367.0930314,None,0.631,367.7265693,368.0263764,368.0091653,370.0107611,370.0107611,370.3111501,right,1,0.0970712,370.3111501,None,370.443626,None,370.443626,None,,,,,,,12,퇡훹쫲,0.1379,2022_Aug_12_1858,쫌퇈잆챠,2021.1.4,59.93418035
1st,A,X,right,1,0,0,0,0,6,8,68,1,,,,,,,371.4446345,None,0.495,371.9439135,372.2448957,372.228308,374.2280339,374.2280339,374.5279242,right,1,0.0817441,374.5279242,None,374.6448175,None,374.6448175,None,,,,,,,12,퇡훹쫲,0.1379,2022_Aug_12_1858,쫌퇈잆챠,2021.1.4,59.93418035
1st,A,X,right,1,0,0,0,0,6,9,69,3,,,,,,,375.645123,None,0.513,376.1633358,376.4791825,376.4454873,378.4472998,378.4472998,378.7469399,right,1,0.0694702,378.7469399,None,378.8640746,None,378.8640746,None,,,,,,,12,퇡훹쫲,0.1379,2022_Aug_12_1858,쫌퇈잆챠,2021.1.4,59.93418035
1st,,,,,0,0,0,0,,,,,,,,,,,,,,,,,,,,,,,,,,,,,379.8634333,None,space,45.2667779,382.8479749,None,12,퇡훹쫲,0.1379,2022_Aug_12_1858,쫌퇈잆챠,2021.1.4,59.93418035
2nd,A,X,right,1,0,1,1,1,0,0,0,3,,,,,,,428.1663392,None,0.488,428.6680229,428.968438,428.9516526,430.9523108,430.9523108,431.251813,left,0,0.4696707,431.251813,None,431.7671419,431.7671419,431.7671419,None,,,,,,,12,퇡훹쫲,0.1379,2022_Aug_12_1858,쫌퇈잆챠,2021.1.4,59.93418035
2nd,A,X,right,1,0,1,1,1,0,1,1,3,,,,,,,432.7670519,None,0.439,433.2181168,433.5181957,433.5015009,435.5023422,435.5023422,435.8026219,right,1,0.0196608,435.8026219,None,435.8679636,None,435.8679636,None,,,,,,,12,퇡훹쫲,0.1379,2022_Aug_12_1858,쫌퇈잆챠,2021.1.4,59.93418035
2nd,A,Y,left,2,0,1,1,1,0,2,2,7,,,,,,,436.8696266,None,0.601,437.4855753,437.7854976,437.7687346,439.7701821,439.7701821,440.0698664,left,1,0.0980274,440.0698664,None,440.2034867,None,440.2034867,None,,,,,,,12,퇡훹쫲,0.1379,2022_Aug_12_1858,쫌퇈잆챠,2021.1.4,59.93418035
2nd,A,X,right,1,0,1,1,1,0,3,3,4,,,,,,,441.2044695,None,0.512,441.7205206,442.0214824,442.0036838,444.004581,444.004581,444.3057861,right,1,0.0152048,444.3057861,None,444.3550642,None,444.3550642,None,,,,,,,12,퇡훹쫲,0.1379,2022_Aug_12_1858,쫌퇈잆챠,2021.1.4,59.93418035
2nd,A,X,right,1,0,1,1,1,0,4,4,0,,,,,,,445.3559305,None,0.488,445.8562965,446.1555981,446.1396464,448.1404581,448.1404581,448.440281,right,1,0.0311374,448.440281,None,448.5064472,None,448.5064472,None,,,,,,,12,퇡훹쫲,0.1379,2022_Aug_12_1858,쫌퇈잆챠,2021.1.4,59.93418035
2nd,A,X,right,1,0,1,1,1,0,5,5,6,,,,,,,449.5078394,None,0.665,450.1745864,450.4736825,450.4569974,452.4581611,452.4581611,452.7591095,right,1,0.0648777,452.7591095,None,452.8579079,None,452.8579079,None,,,,,,,12,퇡훹쫲,0.1379,2022_Aug_12_1858,쫌퇈잆챠,2021.1.4,59.93418035
2nd,A,X,right,1,0,1,1,1,0,6,6,3,,,,,,,453.8592871,None,0.401,454.2595231,454.5764462,454.5418568,456.5432801,456.5432801,456.8426428,right,1,0.0211758,456.8426428,None,456.9105235,None,456.9105235,None,,,,,,,12,퇡훹쫲,0.1379,2022_Aug_12_1858,쫌퇈잆챠,2021.1.4,59.93418035
2nd,B,X,left,3,0,1,1,1,0,7,7,8,,,,,,,457.9098239,None,0.412,458.3276955,458.6269586,458.6101572,460.6120512,460.6120512,460.9277093,left,1,0.379663,460.9110652,None,461.3283961,461.3283961,461.3283961,None,,,,,,,12,퇡훹쫲,0.1379,2022_Aug_12_1858,쫌퇈잆챠,2021.1.4,59.93418035
2nd,A,X,right,1,0,1,1,1,0,8,8,6,,,,,,,462.3280627,None,0.61,462.9460942,463.2461544,463.2290827,465.229681,465.229681,465.5305727,right,1,0.4055725,465.5305727,None,465.9799263,465.9799263,465.9799263,None,,,,,,,12,퇡훹쫲,0.1379,2022_Aug_12_1858,쫌퇈잆챠,2021.1.4,59.93418035
2nd,B,X,left,3,0,1,1,1,0,9,9,8,,,,,,,466.9801423,None,0.508,467.4978135,467.7970456,467.7807539,469.7821857,469.7821857,470.0822739,right,0,0.0330415,470.0822739,None,470.1477724,470.1477724,470.1477724,None,,,,,,,12,퇡훹쫲,0.1379,2022_Aug_12_1858,쫌퇈잆챠,2021.1.4,59.93418035
2nd,A,X,right,1,0,1,1,1,1,0,10,5,,,,,,,471.1481768,None,0.631,471.7827768,472.0818536,472.0652868,474.0670518,474.0670518,474.3662737,right,1,0.1157387,474.3662737,None,474.5162499,None,474.5162499,None,,,,,,,12,퇡훹쫲,0.1379,2022_Aug_12_1858,쫌퇈잆챠,2021.1.4,59.93418035
2nd,A,X,right,1,0,1,1,1,1,1,11,6,,,,,,,475.517199,None,0.784,476.3011418,476.6012615,476.5836299,478.585512,478.585512,478.8851995,right,1,0.0257598,478.8851995,None,478.9514052,None,478.9514052,None,,,,,,,12,퇡훹쫲,0.1379,2022_Aug_12_1858,쫌퇈잆챠,2021.1.4,59.93418035
2nd,A,X,right,1,0,1,1,1,1,2,12,2,,,,,,,479.9525825,None,0.707,480.6694743,480.9696547,480.9530361,482.9528319,482.9528319,483.2535005,right,1,0.0866039,483.2535005,None,483.3863752,None,483.3863752,None,,,,,,,12,퇡훹쫲,0.1379,2022_Aug_12_1858,쫌퇈잆챠,2021.1.4,59.93418035
2nd,A,X,right,1,0,1,1,1,1,3,13,2,,,,,,,484.3877068,None,0.43,484.821115,485.1211856,485.1045535,487.1043601,487.1043601,487.4054272,right,1,0.2541734,487.4054272,None,487.7045849,487.7045849,487.7045849,None,,,,,,,12,퇡훹쫲,0.1379,2022_Aug_12_1858,쫌퇈잆챠,2021.1.4,59.93418035
2nd,B,Y,left,4,0,1,1,1,1,4,14,9,,,,,,,488.7059117,None,0.498,489.2053029,489.5064389,489.4895388,491.4896005,491.4896005,491.7899527,left,1,0.0648173,491.7899527,None,491.8893704,None,491.8893704,None,,,,,,,12,퇡훹쫲,0.1379,2022_Aug_12_1858,쫌퇈잆챠,2021.1.4,59.93418035
2nd,A,X,right,1,0,1,1,1,1,5,15,1,,,,,,,492.8909262,None,0.609,493.5080579,493.8078272,493.7911981,495.791939,495.791939,496.0921071,right,1,0.0032632,496.0921071,None,496.1242908,None,496.1242908,None,,,,,,,12,퇡훹쫲,0.1379,2022_Aug_12_1858,쫌퇈잆챠,2021.1.4,59.93418035
2nd,A,X,right,1,0,1,1,1,1,6,16,5,,,,,,,497.1253842,None,0.501,497.6420187,497.9427733,497.9260679,499.9264209,499.9264209,500.2261303,right,1,0.120619,500.2261303,None,500.3937339,None,500.3937339,None,,,,,,,12,퇡훹쫲,0.1379,2022_Aug_12_1858,쫌퇈잆챠,2021.1.4,59.93418035
2nd,A,X,right,1,0,1,1,1,1,7,17,0,,,,,,,501.3935423,None,0.658,502.0610356,502.3610811,502.3445448,504.3451303,504.3451303,504.6444134,right,1,0.0252437,504.6444134,None,504.7115486,None,504.7115486,None,,,,,,,12,퇡훹쫲,0.1379,2022_Aug_12_1858,쫌퇈잆챠,2021.1.4,59.93418035
2nd,B,Y,left,4,0,1,1,1,1,8,18,9,,,,,,,505.712567,None,0.606,506.3284259,506.6293774,506.6123501,508.6126648,508.6126648,508.9141692,left,1,0.0618056,508.9141692,None,509.0127626,None,509.0127626,None,,,,,,,12,퇡훹쫲,0.1379,2022_Aug_12_1858,쫌퇈잆챠,2021.1.4,59.93418035
2nd,A,X,right,1,0,1,1,1,1,9,19,5,,,,,,,510.0131001,None,0.749,510.7644047,511.0636598,511.0471697,513.04749,513.04749,513.3487044,right,1,0.0181067,513.3487044,None,513.3986831,None,513.3986831,None,,,,,,,12,퇡훹쫲,0.1379,2022_Aug_12_1858,쫌퇈잆챠,2021.1.4,59.93418035
2nd,A,Y,left,2,0,1,1,1,2,0,20,7,,,,,,,514.3986401,None,0.703,515.1149254,515.4150184,515.3986638,517.3993681,517.3993681,517.6992798,left,1,0.1972369,517.6992798,None,517.9335289,517.9335289,517.9335289,None,,,,,,,12,퇡훹쫲,0.1379,2022_Aug_12_1858,쫌퇈잆챠,2021.1.4,59.93418035
2nd,A,X,right,1,0,1,1,1,2,1,21,2,,,,,,,518.9329108,None,0.703,519.6506798,519.9504176,519.9346769,521.9354535,521.9354535,522.2344439,right,1,0.0488644,522.2344439,None,522.3179864,None,522.3179864,None,,,,,,,12,퇡훹쫲,0.1379,2022_Aug_12_1858,쫌퇈잆챠,2021.1.4,59.93418035
2nd,A,X,right,1,0,1,1,1,2,2,22,6,,,,,,,523.3191851,None,0.416,523.7353833,524.0360464,524.0183134,526.019124,526.019124,526.3202005,right,1,0.135648,526.3202005,None,526.5035603,None,526.5035603,None,,,,,,,12,퇡훹쫲,0.1379,2022_Aug_12_1858,쫌퇈잆챠,2021.1.4,59.93418035
2nd,A,Y,left,2,0,1,1,1,2,3,23,7,,,,,,,527.504168,None,0.404,527.9209916,528.2210462,528.2044705,530.2052674,530.2052674,530.5051322,left,1,0.1739305,530.5051322,None,530.720967,530.720967,530.720967,None,,,,,,,12,퇡훹쫲,0.1379,2022_Aug_12_1858,쫌퇈잆챠,2021.1.4,59.93418035
2nd,A,X,right,1,0,1,1,1,2,4,24,0,,,,,,,531.7222491,None,0.465,532.1891923,532.4892384,532.4726657,534.472714,534.472714,534.7730771,right,1,0.1085686,534.7730771,None,534.9227022,None,534.9227022,None,,,,,,,12,퇡훹쫲,0.1379,2022_Aug_12_1858,쫌퇈잆챠,2021.1.4,59.93418035
2nd,A,X,right,1,0,1,1,1,2,5,25,3,,,,,,,535.9240835,None,0.652,536.5907389,536.8899554,536.8734845,538.8749586,538.8749586,539.1749841,right,1,0.0697724,539.1749841,None,539.2909238,None,539.2909238,None,,,,,,,12,퇡훹쫲,0.1379,2022_Aug_12_1858,쫌퇈잆챠,2021.1.4,59.93418035
2nd,A,X,right,1,0,1,1,1,2,6,26,4,,,,,,,540.2912445,None,0.646,540.9424418,541.2418065,541.2249679,543.2260446,543.2260446,543.5268409,right,1,0.0777897,543.5268409,None,543.6424255,None,543.6424255,None,,,,,,,12,퇡훹쫲,0.1379,2022_Aug_12_1858,쫌퇈잆챠,2021.1.4,59.93418035
2nd,A,X,right,1,0,1,1,1,2,7,27,4,,,,,,,544.6435792,None,0.407,545.0603578,545.3599437,545.3431778,547.3440222,547.3440222,547.6450051,right,1,0.5026671,547.6450051,None,548.1952625,548.1952625,548.1952625,None,,,,,,,12,퇡훹쫲,0.1379,2022_Aug_12_1858,쫌퇈잆챠,2021.1.4,59.93418035
2nd,B,Y,left,4,0,1,1,1,2,8,28,9,,,,,,,549.1947124,None,0.592,549.7957992,550.0957246,550.0794225,552.0801903,552.0801903,552.3792498,left,1,0.0625911,552.3792498,None,552.4792442,None,552.4792442,None,,,,,,,12,퇡훹쫲,0.1379,2022_Aug_12_1858,쫌퇈잆챠,2021.1.4,59.93418035
2nd,A,X,right,1,0,1,1,1,2,9,29,6,,,,,,,553.4796646,None,0.545,554.0298081,554.3310352,554.3144837,556.3140243,556.3140243,556.6146974,right,1,0.0016314,556.6146974,None,556.6485378,None,556.6485378,None,,,,,,,12,퇡훹쫲,0.1379,2022_Aug_12_1858,쫌퇈잆챠,2021.1.4,59.93418035
2nd,A,X,right,1,0,1,1,1,3,0,30,1,,,,,,,557.6479301,None,0.546,558.1988329,558.4994774,558.4829494,560.4833836,560.4833836,560.7830774,right,1,0.7181499,560.7830774,None,561.5326245,561.5326245,561.5326245,None,,,,,,,12,퇡훹쫲,0.1379,2022_Aug_12_1858,쫌퇈잆챠,2021.1.4,59.93418035
2nd,B,Y,left,4,0,1,1,1,3,1,31,9,,,,,,,562.5330056,None,0.584,563.1173891,563.4172523,563.4000585,565.4012752,565.4012752,565.7009744,left,1,0.02394,565.7009744,None,565.7677941,None,565.7677941,None,,,,,,,12,퇡훹쫲,0.1379,2022_Aug_12_1858,쫌퇈잆챠,2021.1.4,59.93418035
2nd,A,X,right,1,0,1,1,1,3,2,32,1,,,,,,,566.7678626,None,0.521,567.3020221,567.6016913,567.584976,569.5857055,569.5857055,569.8858163,right,1,0.0127541,569.8858163,None,569.9189277,None,569.9189277,None,,,,,,,12,퇡훹쫲,0.1379,2022_Aug_12_1858,쫌퇈잆챠,2021.1.4,59.93418035
2nd,A,X,right,1,0,1,1,1,3,3,33,5,,,,,,,570.9194731,None,0.605,571.5374748,571.8366415,571.8199413,573.8218571,573.8218571,574.1211631,right,1,0.0201833,574.1211631,None,574.1885522,None,574.1885522,None,,,,,,,12,퇡훹쫲,0.1379,2022_Aug_12_1858,쫌퇈잆챠,2021.1.4,59.93418035
2nd,A,Y,left,2,0,1,1,1,3,4,34,7,,,,,,,575.1888187,None,0.517,575.7056779,576.0054159,575.9885399,577.9890694,577.9890694,578.2894882,left,1,0.3453141,578.2894882,None,578.6734869,578.6734869,578.6734869,None,,,,,,,12,퇡훹쫲,0.1379,2022_Aug_12_1858,쫌퇈잆챠,2021.1.4,59.93418035
2nd,A,X,right,1,0,1,1,1,3,5,35,4,,,,,,,579.673633,None,0.444,580.1240572,580.4237167,580.4074945,582.4083183,582.4083183,582.7081049,right,1,0.323438,582.7081049,None,583.0747397,583.0747397,583.0747397,None,,,,,,,12,퇡훹쫲,0.1379,2022_Aug_12_1858,쫌퇈잆챠,2021.1.4,59.93418035
2nd,A,Y,left,2,0,1,1,1,3,6,36,7,,,,,,,584.0748731,None,0.594,584.6757495,584.9761272,584.959192,586.9590072,586.9590072,587.259084,left,1,0.0945106,587.259084,None,587.3924911,None,587.3924911,None,,,,,,,12,퇡훹쫲,0.1379,2022_Aug_12_1858,쫌퇈잆챠,2021.1.4,59.93418035
2nd,A,X,right,1,0,1,1,1,3,7,37,3,,,,,,,588.3937964,None,0.59,588.9936628,589.2933542,589.2767069,591.2783128,591.2783128,591.5951156,right,1,0.4258639,591.5773476,None,592.0295691,592.0295691,592.0295691,None,,,,,,,12,퇡훹쫲,0.1379,2022_Aug_12_1858,쫌퇈잆챠,2021.1.4,59.93418035
2nd,B,X,left,3,0,1,1,1,3,8,38,8,,,,,,,593.030514,None,0.466,593.4974263,593.7974997,593.7809038,595.7816566,595.7816566,596.0813421,left,1,0.3378296,596.0813421,None,596.463776,596.463776,596.463776,None,,,,,,,12,퇡훹쫲,0.1379,2022_Aug_12_1858,쫌퇈잆챠,2021.1.4,59.93418035
2nd,A,Y,left,2,0,1,1,1,3,9,39,7,,,,,,,597.4641901,None,0.736,598.2132952,598.5139528,598.4976929,600.4972852,600.4972852,600.7986971,left,1,0.1504674,600.7986971,None,600.9808992,600.9808992,600.9808992,None,,,,,,,12,퇡훹쫲,0.1379,2022_Aug_12_1858,쫌퇈잆챠,2021.1.4,59.93418035
2nd,A,X,right,1,0,1,1,1,4,0,40,0,,,,,,,601.9815909,None,0.419,602.4164789,602.731827,602.698632,604.6996265,604.6996265,604.9994978,right,1,0.3498058,604.9994978,None,605.3836103,605.3836103,605.3836103,None,,,,,,,12,퇡훹쫲,0.1379,2022_Aug_12_1858,쫌퇈잆챠,2021.1.4,59.93418035
2nd,B,X,left,3,0,1,1,1,4,1,41,8,,,,,,,606.3832928,None,0.731,607.1176828,607.4173626,607.400752,609.4013072,609.4013072,609.701366,right,0,0.0503457,609.701366,None,609.7841955,609.7841955,609.7841955,None,,,,,,,12,퇡훹쫲,0.1379,2022_Aug_12_1858,쫌퇈잆챠,2021.1.4,59.93418035
2nd,A,X,right,1,0,1,1,1,4,2,42,2,,,,,,,610.7880365,None,0.631,611.4205275,611.7211577,611.7039973,613.7052553,613.7052553,614.0054261,right,1,0.5603448,614.0054261,None,614.6035569,614.6035569,614.6035569,None,,,,,,,12,퇡훹쫲,0.1379,2022_Aug_12_1858,쫌퇈잆챠,2021.1.4,59.93418035
2nd,A,X,right,1,0,1,1,1,4,3,43,6,,,,,,,615.6041982,None,0.462,616.0706383,616.3702817,616.3536551,618.3552456,618.3552456,618.6544311,right,1,0.1436053,618.6544311,None,618.8212047,618.8212047,618.8212047,None,,,,,,,12,퇡훹쫲,0.1379,2022_Aug_12_1858,쫌퇈잆챠,2021.1.4,59.93418035
2nd,A,X,right,1,0,1,1,1,4,4,44,0,,,,,,,619.8242317,None,0.519,620.3572784,620.657467,620.6414239,622.6413962,622.6413962,622.9419735,right,1,0.0921033,622.9419735,None,623.0729568,None,623.0729568,None,,,,,,,12,퇡훹쫲,0.1379,2022_Aug_12_1858,쫌퇈잆챠,2021.1.4,59.93418035
2nd,A,X,right,1,0,1,1,1,4,5,45,1,,,,,,,624.074184,None,0.613,624.6912261,625.0079781,624.9733662,626.9756094,626.9756094,627.2910327,right,1,0.030331,627.2743098,None,627.3412832,None,627.3412832,None,,,,,,,12,퇡훹쫲,0.1379,2022_Aug_12_1858,쫌퇈잆챠,2021.1.4,59.93418035
2nd,A,X,right,1,0,1,1,1,4,6,46,5,,,,,,,628.3415352,None,0.555,628.9094263,629.2093709,629.1928146,631.1926664,631.1926664,631.4952764,right,1,0.0416885,631.4952764,None,631.5765414,None,631.5765414,None,,,,,,,12,퇡훹쫲,0.1379,2022_Aug_12_1858,쫌퇈잆챠,2021.1.4,59.93418035
2nd,A,X,right,1,0,1,1,1,4,7,47,3,,,,,,,632.5773757,None,0.613,633.1941828,633.4933753,633.4768017,635.4785001,635.4785001,635.7951806,right,1,0.035452,635.7775863,None,635.8300664,None,635.8300664,None,,,,,,,12,퇡훹쫲,0.1379,2022_Aug_12_1858,쫌퇈잆챠,2021.1.4,59.93418035
2nd,A,X,right,1,0,1,1,1,4,8,48,1,,,,,,,636.8306092,None,0.526,637.3642356,637.6643221,637.6477472,639.6480012,639.6480012,639.948383,right,1,0.0673492,639.948383,None,640.0458482,None,640.0458482,None,,,,,,,12,퇡훹쫲,0.1379,2022_Aug_12_1858,쫌퇈잆챠,2021.1.4,59.93418035
2nd,B,Y,left,4,0,1,1,1,4,9,49,9,,,,,,,641.0475582,None,0.476,641.5308277,641.8310521,641.814599,643.8145254,643.8145254,644.115414,left,1,0.0274668,644.115414,None,644.1814011,None,644.1814011,None,,,,,,,12,퇡훹쫲,0.1379,2022_Aug_12_1858,쫌퇈잆챠,2021.1.4,59.93418035
2nd,A,X,right,1,0,1,1,1,5,0,50,5,,,,,,,645.182801,None,0.787,645.9823706,646.2826422,646.2658995,648.2659266,648.2659266,648.5657263,right,1,0.3074102,648.5657263,None,648.9162273,648.9162273,648.9162273,None,,,,,,,12,퇡훹쫲,0.1379,2022_Aug_12_1858,쫌퇈잆챠,2021.1.4,59.93418035
2nd,B,Y,left,4,0,1,1,1,5,1,51,9,,,,,,,649.9162386,None,0.499,650.4177178,650.7187273,650.7022081,652.7029931,652.7029931,653.0030543,left,1,0.3325473,653.0030543,None,653.3682059,653.3682059,653.3682059,None,,,,,,,12,퇡훹쫲,0.1379,2022_Aug_12_1858,쫌퇈잆챠,2021.1.4,59.93418035
2nd,A,X,right,1,0,1,1,1,5,2,52,1,,,,,,,654.3680013,None,0.769,655.135831,655.4359985,655.4189572,657.42013,657.42013,657.719709,right,1,0.2182989,657.719709,None,657.9690668,657.9690668,657.9690668,None,,,,,,,12,퇡훹쫲,0.1379,2022_Aug_12_1858,쫌퇈잆챠,2021.1.4,59.93418035
2nd,B,X,left,3,0,1,1,1,5,3,53,8,,,,,,,658.9710008,None,0.777,659.7543891,660.0544657,660.0379616,662.0397311,662.0397311,662.340274,left,1,0.0849958,662.340274,None,662.4544176,None,662.4544176,None,,,,,,,12,퇡훹쫲,0.1379,2022_Aug_12_1858,쫌퇈잆챠,2021.1.4,59.93418035
2nd,A,X,right,1,0,1,1,1,5,4,54,3,,,,,,,663.4558179,None,0.776,664.2394704,664.5396898,664.5224246,666.5226632,666.5226632,666.8239073,right,1,0.055449,666.8239073,None,666.9233681,None,666.9233681,None,,,,,,,12,퇡훹쫲,0.1379,2022_Aug_12_1858,쫌퇈잆챠,2021.1.4,59.93418035
2nd,A,X,right,1,0,1,1,1,5,5,55,4,,,,,,,667.9243221,None,0.648,668.5741501,668.8745218,668.8578451,670.8586269,670.8586269,671.1576408,right,1,0.2676701,671.1576408,None,671.4585071,671.4585071,671.4585071,None,,,,,,,12,퇡훹쫲,0.1379,2022_Aug_12_1858,쫌퇈잆챠,2021.1.4,59.93418035
2nd,A,X,right,1,0,1,1,1,5,6,56,2,,,,,,,672.4581487,None,0.661,673.1260959,673.4265159,673.4095556,675.4104296,675.4104296,675.7104855,right,1,0.0599137,675.7104855,None,675.8100666,None,675.8100666,None,,,,,,,12,퇡훹쫲,0.1379,2022_Aug_12_1858,쫌퇈잆챠,2021.1.4,59.93418035
2nd,A,X,right,1,0,1,1,1,5,7,57,6,,,,,,,676.8110445,None,0.561,677.377751,677.6771375,677.6604232,679.6620185,679.6620185,679.9615181,right,1,0.0405241,679.9615181,None,680.0288717,None,680.0288717,None,,,,,,,12,퇡훹쫲,0.1379,2022_Aug_12_1858,쫌퇈잆챠,2021.1.4,59.93418035
2nd,B,X,left,3,0,1,1,1,5,8,58,8,,,,,,,681.0307744,None,0.754,681.7978292,682.0977722,682.0814417,684.0819673,684.0819673,684.3822385,left,1,0.0827851,684.3822385,None,684.4960964,None,684.4960964,None,,,,,,,12,퇡훹쫲,0.1379,2022_Aug_12_1858,쫌퇈잆챠,2021.1.4,59.93418035
2nd,A,X,right,1,0,1,1,1,5,9,59,0,,,,,,,685.4964997,None,0.402,685.8975951,686.1968657,686.1801663,688.1818698,688.1818698,688.4810047,right,1,0.2967879,688.4810047,None,688.8155585,688.8155585,688.8155585,None,,,,,,,12,퇡훹쫲,0.1379,2022_Aug_12_1858,쫌퇈잆챠,2021.1.4,59.93418035
2nd,A,X,right,1,0,1,1,1,6,0,60,4,,,,,,,689.8148472,None,0.657,690.4818734,690.7828223,690.76611,692.7669134,692.7669134,693.067263,right,1,0.0164584,693.067263,None,693.1167406,None,693.1167406,None,,,,,,,12,퇡훹쫲,0.1379,2022_Aug_12_1858,쫌퇈잆챠,2021.1.4,59.93418035
2nd,A,X,right,1,0,1,1,1,6,1,61,4,,,,,,,694.1163568,None,0.666,694.7837929,695.0845372,695.0679373,697.0687929,697.0687929,697.3687159,right,1,0.2393007,697.3687159,None,697.651169,697.651169,697.651169,None,,,,,,,12,퇡훹쫲,0.1379,2022_Aug_12_1858,쫌퇈잆챠,2021.1.4,59.93418035
2nd,B,Y,left,4,0,1,1,1,6,2,62,9,,,,,,,698.6525099,None,0.732,699.3854961,699.6852098,699.669227,701.6706757,701.6706757,701.9696843,left,1,0.0580337,701.9696843,None,702.0529215,None,702.0529215,None,,,,,,,12,퇡훹쫲,0.1379,2022_Aug_12_1858,쫌퇈잆챠,2021.1.4,59.93418035
2nd,A,X,right,1,0,1,1,1,6,3,63,0,,,,,,,703.054375,None,0.783,703.8370898,704.1379167,704.1213847,706.1221931,706.1221931,706.4215105,right,1,0.3407415,706.4215105,None,706.787701,706.787701,706.787701,None,,,,,,,12,퇡훹쫲,0.1379,2022_Aug_12_1858,쫌퇈잆챠,2021.1.4,59.93418035
2nd,A,Y,left,2,0,1,1,1,6,4,64,7,,,,,,,707.789395,None,0.664,708.4551297,708.7562258,708.7392321,710.7398566,710.7398566,711.0406088,left,1,0.0514593,711.0406088,None,711.1407498,None,711.1407498,None,,,,,,,12,퇡훹쫲,0.1379,2022_Aug_12_1858,쫌퇈잆챠,2021.1.4,59.93418035
2nd,A,X,right,1,0,1,1,1,6,5,65,2,,,,,,,712.1410326,None,0.456,712.6067893,712.9081349,712.8906986,714.8920099,714.8920099,715.1910618,right,1,0.5789055,715.1910618,None,715.8086328,715.8086328,715.8086328,None,,,,,,,12,퇡훹쫲,0.1379,2022_Aug_12_1858,쫌퇈잆챠,2021.1.4,59.93418035
2nd,A,X,right,1,0,1,1,1,6,6,66,1,,,,,,,716.8084592,None,0.77,717.593206,717.8932317,717.876663,719.8771929,719.8771929,720.1773655,right,1,0.6823306,720.1773655,None,720.8933511,720.8933511,720.8933511,None,,,,,,,12,퇡훹쫲,0.1379,2022_Aug_12_1858,쫌퇈잆챠,2021.1.4,59.93418035
2nd,A,X,right,1,0,1,1,1,6,7,67,5,,,,,,,721.8946366,None,0.55,722.4449317,722.7450385,722.7283539,724.7280912,724.7280912,725.0293692,right,1,0.0812632,725.0293692,None,725.1452584,None,725.1452584,None,,,,,,,12,퇡훹쫲,0.1379,2022_Aug_12_1858,쫌퇈잆챠,2021.1.4,59.93418035
2nd,A,X,right,1,0,1,1,1,6,8,68,2,,,,,,,726.1465049,None,0.782,726.9300443,727.2297633,727.2130086,729.2144374,729.2144374,729.5141903,right,1,0.1043453,729.5141903,None,729.6632807,None,729.6632807,None,,,,,,,12,퇡훹쫲,0.1379,2022_Aug_12_1858,쫌퇈잆챠,2021.1.4,59.93418035
2nd,B,X,left,3,0,1,1,1,6,9,69,8,,,,,,,730.6646835,None,0.489,731.1651161,731.4807462,731.4473835,733.449098,733.449098,733.7491871,left,1,0.1019664,733.7491871,None,733.8983443,None,733.8983443,None,,,,,,,12,퇡훹쫲,0.1379,2022_Aug_12_1858,쫌퇈잆챠,2021.1.4,59.93418035
2nd,,,,,0,1,1,1,,,,,,,,,,,,,,,,,,,,,,,,,,,,,734.8995955,None,space,110.8876244,737.8841847,None,,퇡훹쫲,0.1379,2022_Aug_12_1858,쫌퇈잆챠,2021.1.4,59.93418035
